Folder: Semiconductor-thinfilm-data-visualization/pages/assets

Note: README.md
# Semiconductor Thin Film Data Analysis Web App

## Introduction

This web application is designed to help you analyze semiconductor thin film properties. It allows you to input data related to thin film samples, such as deposition voltage, deposition time, temperature, pH, and more. The application will then perform various data analysis processes to provide insights into both optical and electrical properties of the thin films.

Access the web app [here](https://semiconductor-thinfilm-data-visualization.streamlit.app).

## Analytical Processes

The web app employs several analytical processes to generate the final results:

### Data Input
- Users can input data for multiple thin film samples, including sample ID, deposition voltage, deposition time, temperature, pH, molar mass, density, n-value, current, area, and P.E.C signal.

### Data Exploration and Analysis
- Basic data exploration analysis is performed, and additional columns are calculated, such as average current density, thickness (in cm and nm), and PEC signal in mV.

### Text File Conversion
- Users can upload text files from UV-spectrophotometers, which are then converted to Excel format for analysis.

### Optical Properties Analysis
- Optical properties such as absorbance, transmittance, reflectance, absorption coefficient, refractive index, extinction coefficient, optical conductivity, and dielectric constant are calculated from the UV/VIS spectrophotometer data.

### Electrical Properties Analysis
- Electrical properties including thickness and current density are analyzed based on user-provided data.

## Downloadable Datasets

The web app provides the following downloadable datasets:
- Optical Thin Film Dataset
- Electrical Thin Film Dataset
- Complete Thin Film Dataset

## Visualizations

Users can create customized line graphs to visualize data by selecting X and Y-axis columns. The app offers options to adjust axis values for better visualization.

## Contact

If you have any questions or feedback, please feel free to get in touch with me via the contact form provided in the app.

---

### Read More

You can read more about the development of this web app and its features in my [Medium article](https://medium.com/@Imafidon.E.O/semiconductor-thin-film-analysis-how-i-created-a-streamlit-web-app-to-visualize-and-generate-thin-983fffb0a047).

### Social Media Links

- [Linktree](https://linktr.ee/imafidon_oe)
- [LinkedIn](https://linkedin.com/in/oisedebame-imafidon-92921b228)
- [Github](https://github.com/OisedebameE)
- [Twitter](https://twitter.com/imafidon_oe)
- [Medium](https://medium.com/@Imafidon.E.O)
---

**Created by:** Imafidon Oisedebame E
**Email:** Eliaimafidon234@gmail.com
**Date:** 1 September 2023

File: E1.txt
"Abaru Precious2b_191740 - RawData"
"Wavelength nm.","Abs."
200.0,
203.5,
207.0,
210.5,
214.0,
217.5,
221.0,
224.5,
228.0,
231.5,
235.0,
238.5,
242.0,
245.5,
249.0,
252.5,
256.0,
259.5,
263.0,
266.5,
270.0,
273.5,
277.0,
280.5,
284.0,
287.5,
291.0,
294.5,
298.0,
301.5,0.8179
305.0,0.7988
308.5,0.7962
312.0,0.7930
315.5,0.7900
319.0,0.7877
322.5,0.7840
326.0,0.7832
329.5,0.7828
333.0,0.7815
336.5,0.7823
340.0,0.7598
343.5,0.7329
347.0,0.7319
350.5,0.7294
354.0,0.7272
357.5,0.7267
361.0,0.7230
364.5,0.7207
368.0,0.7220
371.5,0.7194
375.0,0.7160
378.5,-0.0943
382.0,-0.0186
385.5,-0.5738
389.0,-0.3361
392.5,-0.2964
396.0,-0.2800
399.5,-0.3871
403.0,-0.3443
406.5,-0.3921
410.0,-0.3131
413.5,-0.3996
417.0,-0.4039
420.5,0.7051
424.0,0.7046
427.5,0.7041
431.0,0.7036
434.5,0.7030
438.0,0.7017
441.5,0.7006
445.0,0.6986
448.5,0.6970
452.0,0.6946
455.5,0.6920
459.0,0.6893
462.5,0.6862
466.0,0.6831
469.5,0.6797
473.0,0.6767
476.5,0.6730
480.0,0.6687
483.5,0.6639
487.0,0.6581
490.5,0.6530
494.0,0.6487
497.5,0.6459
501.0,0.6431
504.5,0.6401
508.0,0.6369
511.5,0.6336
515.0,0.6305
518.5,0.6277
522.0,0.6249
525.5,0.6226
529.0,0.6208
532.5,0.6189
536.0,0.6171
539.5,0.6156
543.0,0.6140
546.5,0.6130
550.0,0.6119
553.5,0.6109
557.0,0.6100
560.5,0.6096
564.0,0.6088
567.5,0.6080
571.0,0.6073
574.5,0.6068
578.0,0.6061
581.5,0.6054
585.0,0.6046
588.5,0.6037
592.0,0.6026
595.5,0.6014
599.0,0.6003
602.5,0.5989
606.0,0.5975
609.5,0.5959
613.0,0.5941
616.5,0.5922
620.0,0.5903
623.5,0.5882
627.0,0.5859
630.5,0.5837
634.0,0.5816
637.5,0.5792
641.0,0.5751
644.5,0.5701
648.0,0.5666
651.5,0.5649
655.0,0.5632
658.5,0.5607
662.0,0.5577
665.5,0.5550
669.0,0.5518
672.5,0.5485
676.0,0.5455
679.5,0.5424
683.0,0.5393
686.5,0.5360
690.0,0.5330
693.5,0.5300
697.0,0.5271
700.5,0.5243
704.0,0.5215
707.5,0.5187
711.0,0.5161
714.5,0.5136
718.0,0.5111
721.5,0.5087
725.0,0.5065
728.5,0.5045
732.0,0.5026
735.5,0.5005
739.0,0.4989
742.5,0.4972
746.0,0.4956
749.5,0.4940
753.0,0.4928
756.5,0.4916
760.0,0.4900
763.5,0.4890
767.0,0.4880
770.5,0.4872
774.0,0.4864
777.5,0.4860
781.0,0.4853
784.5,0.4847
788.0,0.4841
791.5,0.4837
795.0,0.4834
798.5,0.4830
802.0,0.4827
805.5,0.4824
809.0,0.4821
812.5,0.4819
816.0,0.4816
819.5,0.4817
823.0,0.4814
826.5,0.4813
830.0,0.4813
833.5,0.4812
837.0,0.4811
840.5,0.4809
844.0,0.4807
847.5,0.4806
851.0,0.4805
854.5,0.4805
858.0,0.4805
861.5,0.4802
865.0,0.4799
868.5,0.4798
872.0,0.4797
875.5,0.4794
879.0,0.4792
882.5,0.4791
886.0,0.4789
889.5,0.4787
893.0,0.4784
896.5,0.4783
900.0,0.4779
903.5,
907.0,
910.5,
914.0,
917.5,
921.0,
924.5,
928.0,
931.5,
935.0,
938.5,
942.0,
945.5,
949.0,
952.5,
956.0,
959.5,
963.0,
966.5,
970.0,
973.5,
977.0,
980.5,
984.0,
987.5,
991.0,
994.5,
998.0,
1001.5,
1005.0,
1008.5,
1012.0,
1015.5,
1019.0,
1022.5,
1026.0,
1029.5,
1033.0,
1036.5,
1040.0,
1043.5,
1047.0,
1050.5,
1054.0,
1057.5,
1061.0,
1064.5,
1068.0,
1071.5,
1075.0,
1078.5,
1082.0,
1085.5,
1089.0,
1092.5,
1096.0,
1099.5,
1100.0,

File: E2.txt
"Abaru Precious2b_192006 - RawData"
"Wavelength nm.","Abs."
200.0,
203.5,
207.0,
210.5,
214.0,
217.5,
221.0,
224.5,
228.0,
231.5,
235.0,
238.5,
242.0,
245.5,
249.0,
252.5,
256.0,
259.5,
263.0,
266.5,
270.0,
273.5,
277.0,
280.5,
284.0,
287.5,
291.0,
294.5,
298.0,
301.5,1.3638
305.0,1.3307
308.5,1.2410
312.0,1.2134
315.5,1.1959
319.0,1.1847
322.5,1.1690
326.0,1.1602
329.5,1.1528
333.0,1.1439
336.5,1.1417
340.0,1.1700
343.5,1.1986
347.0,1.1902
350.5,1.1834
354.0,1.1736
357.5,1.1643
361.0,1.1536
364.5,1.1380
368.0,1.1362
371.5,1.1226
375.0,1.1122
378.5,1.0989
382.0,1.0870
385.5,1.0759
389.0,1.0658
392.5,1.0579
396.0,1.0492
399.5,1.0423
403.0,1.0368
406.5,1.0320
410.0,1.0287
413.5,1.0248
417.0,1.0197
420.5,1.0168
424.0,1.0143
427.5,1.0114
431.0,1.0078
434.5,1.0041
438.0,0.9991
441.5,0.9932
445.0,0.9862
448.5,0.9780
452.0,0.9687
455.5,0.9581
459.0,0.9461
462.5,0.9327
466.0,0.9180
469.5,0.9018
473.0,0.8858
476.5,0.8678
480.0,0.8490
483.5,0.8294
487.0,0.8092
490.5,0.7879
494.0,0.7668
497.5,0.7461
501.0,0.7262
504.5,0.7065
508.0,0.6873
511.5,0.6687
515.0,0.6510
518.5,0.6341
522.0,0.6189
525.5,0.6050
529.0,0.5923
532.5,0.5809
536.0,0.5716
539.5,0.5631
543.0,0.5551
546.5,0.5487
550.0,0.5432
553.5,0.5386
557.0,0.5348
560.5,0.5318
564.0,0.5294
567.5,0.5276
571.0,0.5263
574.5,0.5253
578.0,0.5245
581.5,0.5239
585.0,0.5235
588.5,0.5231
592.0,0.5224
595.5,0.5217
599.0,0.5211
602.5,0.5202
606.0,0.5191
609.5,0.5177
613.0,0.5161
616.5,0.5144
620.0,0.5124
623.5,0.5100
627.0,0.5074
630.5,0.5047
634.0,0.5018
637.5,0.4987
641.0,0.4953
644.5,0.4911
648.0,0.4871
651.5,0.4830
655.0,0.4790
658.5,0.4747
662.0,0.4704
665.5,0.4661
669.0,0.4618
672.5,0.4573
676.0,0.4530
679.5,0.4488
683.0,0.4446
686.5,0.4403
690.0,0.4364
693.5,0.4325
697.0,0.4289
700.5,0.4254
704.0,0.4219
707.5,0.4187
711.0,0.4156
714.5,0.4128
718.0,0.4102
721.5,0.4078
725.0,0.4056
728.5,0.4037
732.0,0.4020
735.5,0.4003
739.0,0.3991
742.5,0.3979
746.0,0.3969
749.5,0.3961
753.0,0.3955
756.5,0.3951
760.0,0.3951
763.5,0.3958
767.0,0.3960
770.5,0.3962
774.0,0.3966
777.5,0.3972
781.0,0.3978
784.5,0.3987
788.0,0.3994
791.5,0.4005
795.0,0.4016
798.5,0.4028
802.0,0.4041
805.5,0.4055
809.0,0.4070
812.5,0.4085
816.0,0.4101
819.5,0.4117
823.0,0.4133
826.5,0.4151
830.0,0.4169
833.5,0.4186
837.0,0.4205
840.5,0.4223
844.0,0.4242
847.5,0.4262
851.0,0.4282
854.5,0.4301
858.0,0.4322
861.5,0.4342
865.0,0.4362
868.5,0.4386
872.0,0.4406
875.5,0.4427
879.0,0.4448
882.5,0.4471
886.0,0.4493
889.5,0.4516
893.0,0.4539
896.5,0.4562
900.0,0.4584
903.5,
907.0,
910.5,
914.0,
917.5,
921.0,
924.5,
928.0,
931.5,
935.0,
938.5,
942.0,
945.5,
949.0,
952.5,
956.0,
959.5,
963.0,
966.5,
970.0,
973.5,
977.0,
980.5,
984.0,
987.5,
991.0,
994.5,
998.0,
1001.5,
1005.0,
1008.5,
1012.0,
1015.5,
1019.0,
1022.5,
1026.0,
1029.5,
1033.0,
1036.5,
1040.0,
1043.5,
1047.0,
1050.5,
1054.0,
1057.5,
1061.0,
1064.5,
1068.0,
1071.5,
1075.0,
1078.5,
1082.0,
1085.5,
1089.0,
1092.5,
1096.0,
1099.5,
1100.0,

File: E3.txt
"Abaru Precious2b_192218 - RawData"
"Wavelength nm.","Abs."
200.0,
203.5,
207.0,
210.5,
214.0,
217.5,
221.0,
224.5,
228.0,
231.5,
235.0,
238.5,
242.0,
245.5,
249.0,
252.5,
256.0,
259.5,
263.0,
266.5,
270.0,
273.5,
277.0,
280.5,
284.0,
287.5,
291.0,
294.5,
298.0,
301.5,1.1325
305.0,1.0751
308.5,1.0392
312.0,1.0118
315.5,0.9839
319.0,0.9634
322.5,0.9449
326.0,0.9344
329.5,0.9279
333.0,0.9252
336.5,0.9226
340.0,0.9221
343.5,0.9258
347.0,0.9246
350.5,0.9160
354.0,0.9069
357.5,0.8977
361.0,0.8830
364.5,0.8700
368.0,0.8510
371.5,0.8356
375.0,0.8191
378.5,0.8046
382.0,0.7919
385.5,0.7812
389.0,0.7715
392.5,0.7653
396.0,0.7611
399.5,0.7590
403.0,0.7590
406.5,0.7608
410.0,0.7643
413.5,0.7681
417.0,0.7725
420.5,0.7770
424.0,0.7806
427.5,0.7840
431.0,0.7859
434.5,0.7867
438.0,0.7861
441.5,0.7835
445.0,0.7791
448.5,0.7732
452.0,0.7655
455.5,0.7560
459.0,0.7448
462.5,0.7319
466.0,0.7172
469.5,0.7013
473.0,0.6847
476.5,0.6672
480.0,0.6486
483.5,0.6297
487.0,0.6104
490.5,0.5907
494.0,0.5713
497.5,0.5525
501.0,0.5350
504.5,0.5177
508.0,0.5018
511.5,0.4868
515.0,0.4731
518.5,0.4610
522.0,0.4505
525.5,0.4416
529.0,0.4340
532.5,0.4278
536.0,0.4231
539.5,0.4194
543.0,0.4162
546.5,0.4139
550.0,0.4122
553.5,0.4110
557.0,0.4101
560.5,0.4096
564.0,0.4092
567.5,0.4088
571.0,0.4086
574.5,0.4082
578.0,0.4077
581.5,0.4071
585.0,0.4062
588.5,0.4049
592.0,0.4034
595.5,0.4017
599.0,0.3997
602.5,0.3975
606.0,0.3950
609.5,0.3921
613.0,0.3889
616.5,0.3857
620.0,0.3822
623.5,0.3784
627.0,0.3746
630.5,0.3707
634.0,0.3666
637.5,0.3623
641.0,0.3583
644.5,0.3538
648.0,0.3495
651.5,0.3452
655.0,0.3410
658.5,0.3368
662.0,0.3327
665.5,0.3288
669.0,0.3251
672.5,0.3215
676.0,0.3180
679.5,0.3147
683.0,0.3116
686.5,0.3086
690.0,0.3059
693.5,0.3033
697.0,0.3011
700.5,0.2990
704.0,0.2970
707.5,0.2954
711.0,0.2939
714.5,0.2927
718.0,0.2916
721.5,0.2908
725.0,0.2900
728.5,0.2895
732.0,0.2893
735.5,0.2889
739.0,0.2889
742.5,0.2890
746.0,0.2892
749.5,0.2895
753.0,0.2898
756.5,0.2905
760.0,0.2912
763.5,0.2927
767.0,0.2935
770.5,0.2944
774.0,0.2953
777.5,0.2965
781.0,0.2975
784.5,0.2987
788.0,0.2997
791.5,0.3010
795.0,0.3022
798.5,0.3036
802.0,0.3048
805.5,0.3062
809.0,0.3077
812.5,0.3090
816.0,0.3104
819.5,0.3119
823.0,0.3132
826.5,0.3147
830.0,0.3161
833.5,0.3176
837.0,0.3190
840.5,0.3204
844.0,0.3219
847.5,0.3234
851.0,0.3249
854.5,0.3263
858.0,0.3277
861.5,0.3292
865.0,0.3308
868.5,0.3325
872.0,0.3338
875.5,0.3353
879.0,0.3368
882.5,0.3385
886.0,0.3401
889.5,0.3415
893.0,0.3433
896.5,0.3449
900.0,0.3464
903.5,
907.0,
910.5,
914.0,
917.5,
921.0,
924.5,
928.0,
931.5,
935.0,
938.5,
942.0,
945.5,
949.0,
952.5,
956.0,
959.5,
963.0,
966.5,
970.0,
973.5,
977.0,
980.5,
984.0,
987.5,
991.0,
994.5,
998.0,
1001.5,
1005.0,
1008.5,
1012.0,
1015.5,
1019.0,
1022.5,
1026.0,
1029.5,
1033.0,
1036.5,
1040.0,
1043.5,
1047.0,
1050.5,
1054.0,
1057.5,
1061.0,
1064.5,
1068.0,
1071.5,
1075.0,
1078.5,
1082.0,
1085.5,
1089.0,
1092.5,
1096.0,
1099.5,
1100.0,